{
    "resourceType": "Bundle",
    "identifier": {
        "system": "https://fhir.mytrust.nhs.uk/Id/RCB/PAS",
        "value": "13403891320453338075"
    },
    "type": "message",
    "entry": [
        {
            "fullUrl": "urn:uuid:844ebe20-78f0-4d77-8890-44d588717ca9",
            "resource": {
                "resourceType": "MessageHeader",
                "id": "844ebe20-78f0-4d77-8890-44d588717ca9",
                "eventCoding": {
                    "system": "https://fhir.nhs.uk/CodeSystem/message-event",
                    "code": "document"
                },
                "destination": [
                    {
                        "name": "ROUTE",
                        "target": {
                            "display": "ROUTE"
                        },
                        "endpoint": "ROUTE"
                    }
                ],
                "sender": {
                    "identifier": {
                        "system": "https://fhir.nhs.uk/Id/ods-organization-code",
                        "value": "RCB"
                    },
                    "display": "RCB"
                },
                "source": {
                    "name": "PAS",
                    "endpoint": "PAS"
                },
                "focus": [
                    {
                        "reference": "urn:uuid:5da894e0-a57e-43e9-a1a1-e283a484003c"
                    }
                ]
            }
        },
        {
            "fullUrl": "urn:uuid:5da894e0-a57e-43e9-a1a1-e283a484003c",
            "resource": {
                "id": "5da894e0-a57e-43e9-a1a1-e283a484003c",
                "resourceType": "DocumentReference",
                "type": {
                    "coding": [
                        {
                            "system": "https://fhir.nhs.uk/STU3/CodeSystem/eRS-AttachmentType-1",
                            "code": "REFERRER",
                            "display": "Referrer"
                        }
                    ]
                },
                "status": "current",
                "subject": {
                    "reference": "urn:uuid:221c028d-e15b-4d60-8035-c460c8231fa3"
                },
                "date": "2021-09-17T12:20:00.742000+00:00",
                "description": "upload.jpg",
                "content": [
                    {
                        "attachment": {
                            "contentType": "image/jpeg",
                            "url": "urn:uuid:db60a89b-3989-4290-b373-2e4a7266e556"
                        }
                    }
                ]
            }
        },
        {
            "fullUrl": "urn:uuid:221c028d-e15b-4d60-8035-c460c8231fa3",
            "resource": {
                "resourceType": "Patient",
                "id": "221c028d-e15b-4d60-8035-c460c8231fa3",
                "identifier": [
                    {
                        "system": "https://fhir.nhs.uk/Id/nhs-number",
                        "value": "9333333333"
                    }
                ],
                "name": [
                    {
                        "family": "SMITH",
                        "given": [
                            "FREDRICA"
                        ],
                        "prefix": [
                            "MRS"
                        ]
                    }
                ],
                "telecom": [
                    {
                        "system": "phone",
                        "value": "+441234567890",
                        "use": "home"
                    }
                ],
                "gender": "female",
                "birthDate": "1965-11-12",
                "address": [
                    {
                        "use": "home",
                        "city": "MALTON",
                        "district": "NORTH YORKSHIRE",
                        "postalCode": "YO32 5TT"
                    }
                ],
                "contact": [
                    {
                        "name": {
                            "family": "SMITH",
                            "given": [
                                "FRANCESCA"
                            ],
                            "prefix": [
                                "MRS"
                            ]
                        },
                        "address": {
                            "use": "home",
                            "city": "MALTON",
                            "district": "NORTH YORKSHIRE",
                            "postalCode": "YO32 5TT"
                        }
                    }
                ],
                "generalPractitioner": [
                    {
                        "identifier": {
                            "system": "https://fhir.hl7.org.uk/Id/gmc-number",
                            "value": "G5612908"
                        },
                        "display": "Dr Gregory Townley"
                    }
                ],
                "managingOrganization": {
                    "identifier": {
                        "system": "https://fhir.nhs.uk/Id/ods-organization-code",
                        "value": "Y06601"
                    },
                    "display": "MALTON GP PRACTICE"
                }
            }
        },
        {
            "fullUrl": "urn:uuid:db60a89b-3989-4290-b373-2e4a7266e556",
            "resource": {
                "resourceType": "Binary",
                "contentType": "image/jpeg",
                "data": "/9j/4AAQSkZJRg"
            }
        }
    ]
}